Tiempo	Señal
t/ms	U/V

0,000	0,55
0,100	5,69
0,200	9,18
0,300	9,68
0,400	6,93
0,500	2,07
0,600	-3,14
0,700	-6,68
0,800	-7,13
0,900	-4,50
1,000	0,35
1,100	5,53
1,200	9,13
1,300	9,72
1,400	7,06
1,500	2,26
1,600	-2,95
1,700	-6,63
1,800	-7,16
1,900	-4,63
2,000	0,17
2,100	5,35
2,200	9,05
2,300	9,77
2,400	7,19
2,500	2,46
2,600	-2,79
2,700	-6,54
2,800	-7,22
2,900	-4,78
3,000	-0,01
3,100	5,18
3,200	8,94
3,300	9,81
3,400	7,33
3,500	2,62
3,600	-2,60
3,700	-6,44
3,800	-7,23
3,900	-4,91
4,000	-0,19
4,100	5,02
4,200	8,83
4,300	9,85
4,400	7,48
4,500	2,82
4,600	-2,44
4,700	-6,36
4,800	-7,24
4,900	-5,06
5,000	-0,38
5,100	4,85
5,200	8,75
5,300	9,86
5,400	7,61
5,500	3,00
5,600	-2,28
5,700	-6,25
5,800	-7,25
5,900	-5,19
6,000	-0,58
6,100	4,68
6,200	8,65
6,300	9,86
6,400	7,74
6,500	3,20
6,600	-2,11
6,700	-6,17
6,800	-7,24
6,900	-5,32
7,000	-0,76
7,100	4,50
7,200	8,59
7,300	9,88
7,400	7,85
7,500	3,38
7,600	-1,94
7,700	-6,08
7,800	-7,25
7,900	-5,42
8,000	-0,95
8,100	4,34
8,200	8,47
8,300	9,90
8,400	7,96
8,500	3,53
8,600	-1,72
8,700	-5,98
8,800	-7,28
8,900	-5,55
9,000	-1,11
9,100	4,14
9,200	8,37
9,300	9,94
9,400	8,07
9,500	3,72
9,600	-1,56
9,700	-5,87
9,800	-7,30
9,900	-5,66
10,000	-1,28
10,100	3,98
10,200	8,23
10,300	9,95
10,400	8,20
10,500	3,90
10,600	-1,38
10,700	-5,73
10,800	-7,29
10,900	-5,81
11,000	-1,46
11,100	3,80
11,200	8,11
11,300	9,93
11,400	8,33
11,500	4,08
11,600	-1,24
11,700	-5,62
11,800	-7,28
11,900	-5,91
12,000	-1,64
12,100	3,65
12,200	8,00
12,300	9,90
12,400	8,44
12,500	4,25
12,600	-1,05
12,700	-5,50
12,800	-7,26
12,900	-6,00
13,000	-1,84
13,100	3,45
13,200	7,90
13,300	9,88
13,400	8,52
13,500	4,45
13,600	-0,86
13,700	-5,41
13,800	-7,25
13,900	-6,11
14,000	-2,01
14,100	3,28
14,200	7,78
14,300	9,86
14,400	8,63
14,500	4,60
14,600	-0,66
14,700	-5,27
14,800	-7,26
14,900	-6,19
15,000	-2,16
15,100	3,08
15,200	7,65
15,300	9,86
15,400	8,71
15,500	4,76
15,600	-0,48
15,700	-5,15
15,800	-7,24
15,900	-6,31
16,000	-2,31
16,100	2,90
16,200	7,53
16,300	9,86
16,400	8,82
16,500	4,94
16,600	-0,28
16,700	-4,99
16,800	-7,25
16,900	-6,38
17,000	-2,50
17,100	2,72
17,200	7,38
17,300	9,82
17,400	8,93
17,500	5,11
17,600	-0,11
17,700	-4,85
17,800	-7,21
17,900	-6,49
18,000	-2,68
18,100	2,55
18,200	7,25
18,300	9,77
18,400	9,03
18,500	5,28
18,600	0,05
18,700	-4,72
18,800	-7,20
18,900	-6,57
19,000	-2,87
19,100	2,37
19,200	7,11
19,300	9,74
19,400	9,09
19,500	5,46
19,600	0,25
19,700	-4,59
19,800	-7,15
19,900	-6,64
20,000	-3,03
20,100	2,17
20,200	6,99
20,300	9,70
20,400	9,15
20,500	5,63
20,600	0,45
20,700	-4,45
20,800	-7,14
20,900	-6,70
21,000	-3,19
21,100	1,97
21,200	6,85
21,300	9,65
21,400	9,22
21,500	5,78
21,600	0,65
21,700	-4,31
21,800	-7,11
21,900	-6,77
22,000	-3,34
22,100	1,79
22,200	6,69
22,300	9,61
22,400	9,32
22,500	5,92
22,600	0,83
22,700	-4,14
22,800	-7,07
22,900	-6,85
23,000	-3,48
23,100	1,59
23,200	6,55
23,300	9,56
23,400	9,40
23,500	6,09
23,600	1,01
23,700	-3,99
23,800	-7,03
23,900	-6,91
24,000	-3,67
24,100	1,42
24,200	6,39
24,300	9,50
24,400	9,46
24,500	6,25
24,600	1,20
24,700	-3,84
24,800	-6,95
24,900	-6,96
25,000	-3,82
25,100	1,22
25,200	6,25
25,300	9,42
25,400	9,51
25,500	6,41
25,600	1,39
25,700	-3,70
25,800	-6,90
25,900	-7,01
26,000	-4,00
26,100	1,04
26,200	6,09
26,300	9,37
26,400	9,55
26,500	6,55
26,600	1,58
26,700	-3,53
26,800	-6,87
26,900	-7,04
27,000	-4,13
27,100	0,84
27,200	5,95
27,300	9,31
27,400	9,60
27,500	6,69
27,600	1,78
27,700	-3,38
27,800	-6,82
27,900	-7,07
28,000	-4,26
28,100	0,66
28,200	5,78
28,300	9,24
28,400	9,65
28,500	6,83
28,600	1,96
28,700	-3,22
28,800	-6,74
28,900	-7,12
29,000	-4,40
29,100	0,47
29,200	5,61
29,300	9,17
29,400	9,71
29,500	6,97
29,600	2,14
29,700	-3,05
29,800	-6,66
29,900	-7,17
30,000	-4,54
30,100	0,30
30,200	5,44
30,300	9,09
30,400	9,75
30,500	7,11
30,600	2,32
30,700	-2,89
30,800	-6,56
30,900	-7,18
31,000	-4,69
31,100	0,12
31,200	5,31
31,300	8,99
31,400	9,79
31,500	7,25
31,600	2,50
31,700	-2,74
31,800	-6,49
31,900	-7,20
32,000	-4,84
32,100	-0,08
32,200	5,15
32,300	8,90
32,400	9,80
32,500	7,38
32,600	2,69
32,700	-2,57
32,800	-6,41
32,900	-7,21
33,000	-4,98
33,100	-0,26
33,200	4,98
33,300	8,82
33,400	9,83
33,500	7,52
33,600	2,87
33,700	-2,40
33,800	-6,35
33,900	-7,23
34,000	-5,08
34,100	-0,45
34,200	4,80
34,300	8,75
34,400	9,85
34,500	7,62
34,600	3,07
34,700	-2,22
34,800	-6,26
34,900	-7,24
35,000	-5,21
35,100	-0,61
35,200	4,60
35,300	8,65
35,400	9,89
35,500	7,75
35,600	3,25
35,700	-2,03
35,800	-6,16
35,900	-7,27
36,000	-5,34
36,100	-0,80
36,200	4,44
36,300	8,54
36,400	9,92
36,500	7,89
36,600	3,40
36,700	-1,86
36,800	-6,02
36,900	-7,28
37,000	-5,48
37,100	-0,97
37,200	4,27
37,300	8,41
37,400	9,93
37,500	8,02
37,600	3,58
37,700	-1,68
37,800	-5,92
37,900	-7,29
38,000	-5,60
38,100	-1,17
38,200	4,12
38,300	8,31
38,400	9,92
38,500	8,13
38,600	3,79
38,700	-1,53
38,800	-5,81
38,900	-7,27
39,000	-5,73
39,100	-1,36
39,200	3,94
39,300	8,19
39,400	9,92
39,500	8,24
39,600	3,99
39,700	-1,34
39,800	-5,71
39,900	-7,26
40,000	-5,83
40,100	-1,54
40,200	3,76
40,300	8,10
40,400	9,91
40,500	8,35
40,600	4,16
40,700	-1,16
40,800	-5,60
40,900	-7,27
41,000	-5,91
41,100	-1,72
41,200	3,56
41,300	7,98
41,400	9,91
41,500	8,45
41,600	4,33
41,700	-0,94
41,800	-5,47
41,900	-7,28
42,000	-6,03
42,100	-1,90
42,200	3,36
42,300	7,86
42,400	9,90
42,500	8,57
42,600	4,49
42,700	-0,77
42,800	-5,34
42,900	-7,26
43,000	-6,16
43,100	-2,06
43,200	3,20
43,300	7,71
43,400	9,89
43,500	8,67
43,600	4,66
43,700	-0,59
43,800	-5,19
43,900	-7,24
44,000	-6,27
44,100	-2,23
44,200	3,02
44,300	7,59
44,400	9,85
44,500	8,78
44,600	4,84
44,700	-0,41
44,800	-5,06
44,900	-7,24
45,000	-6,35
45,100	-2,42
45,200	2,84
45,300	7,46
45,400	9,81
45,500	8,87
45,600	5,01
45,700	-0,23
45,800	-4,94
45,900	-7,21
46,000	-6,43
46,100	-2,61
46,200	2,65
46,300	7,33
46,400	9,78
46,500	8,95
46,600	5,20
46,700	-0,05
46,800	-4,81
46,900	-7,20
47,000	-6,50
47,100	-2,76
47,200	2,46
47,300	7,21
47,400	9,76
47,500	9,02
47,600	5,35
47,700	0,15
47,800	-4,68
47,900	-7,18
48,000	-6,58
48,100	-2,92
48,200	2,27
48,300	7,05
48,400	9,75
48,500	9,11
48,600	5,51
48,700	0,34
48,800	-4,53
48,900	-7,16
49,000	-6,66
49,100	-3,07
49,200	2,08
49,300	6,93
49,400	9,69
49,500	9,19
49,600	5,65
49,700	0,53
49,800	-4,38
49,900	-7,13
50,000	-6,73
50,100	-3,23
50,200	1,91
50,300	6,78
50,400	9,65
50,500	9,28
50,600	5,82
50,700	0,70
50,800	-4,24
50,900	-7,09
51,000	-6,82
51,100	-3,39
