Tiempo	Señal
t/ms	U/V

0,000	-0,177
0,100	4,817
0,200	8,020
0,300	8,240
0,400	5,389
0,500	0,523
0,600	-4,547
0,700	-7,927
0,800	-8,350
0,900	-5,647
1,000	-0,820
1,100	4,326
1,200	7,859
1,300	8,444
1,400	5,850
1,500	1,043
1,600	-4,167
1,700	-7,812
1,800	-8,508
1,900	-5,983
2,000	-1,188
2,100	4,063
2,200	7,775
2,300	8,536
2,400	6,054
2,500	1,269
2,600	-3,997
2,700	-7,740
2,800	-8,535
2,900	-6,082
3,000	-1,316
3,100	3,945
3,200	7,699
3,300	8,518
3,400	6,097
3,500	1,360
3,600	-3,888
3,700	-7,651
3,800	-8,503
3,900	-6,123
4,000	-1,422
4,100	3,816
4,200	7,601
4,300	8,501
4,400	6,177
4,500	1,511
4,600	-3,726
4,700	-7,553
4,800	-8,518
4,900	-6,257
5,000	-1,624
5,100	3,627
5,200	7,509
5,300	8,549
5,400	6,351
5,500	1,745
5,600	-3,527
5,700	-7,469
5,800	-8,583
5,900	-6,445
6,000	-1,861
6,100	3,433
6,200	7,428
6,300	8,608
6,400	6,523
6,500	1,961
6,600	-3,346
6,700	-7,383
6,800	-8,618
6,900	-6,580
7,000	-2,045
7,100	3,264
7,200	7,331
7,300	8,611
7,400	6,621
7,500	2,119
7,600	-3,183
7,700	-7,272
7,800	-8,596
7,900	-6,657
8,000	-2,192
8,100	3,100
8,200	7,211
8,300	8,584
8,400	6,699
8,500	2,273
8,600	-3,013
8,700	-7,154
8,800	-8,581
8,900	-6,754
9,000	-2,364
9,100	2,923
9,200	7,104
9,300	8,592
9,400	6,823
9,500	2,464
9,600	-2,833
9,700	-7,059
9,800	-8,612
9,900	-6,898
10,000	-2,566
10,100	2,744
10,200	7,017
10,300	8,631
10,400	6,972
10,500	2,665
10,600	-2,656
10,700	-6,971
10,800	-8,643
10,900	-7,035
11,000	-2,757
11,100	2,567
11,200	6,916
11,300	8,640
11,400	7,085
11,500	2,842
11,600	-2,476
11,700	-6,852
11,800	-8,625
11,900	-7,125
12,000	-2,924
12,100	2,383
12,200	6,781
12,300	8,604
12,400	7,162
12,500	3,005
12,600	-2,288
12,700	-6,710
12,800	-8,585
12,900	-7,203
13,000	-3,089
13,100	2,195
13,200	6,645
13,300	8,575
13,400	7,251
13,500	3,177
13,600	-2,104
13,700	-6,589
13,800	-8,575
13,900	-7,307
14,000	-3,265
14,100	2,018
14,200	6,539
14,300	8,581
14,400	7,366
14,500	3,354
14,600	-1,934
14,700	-6,492
14,800	-8,587
14,900	-7,424
15,000	-3,441
15,100	1,849
15,200	6,440
15,300	8,587
15,400	7,476
15,500	3,528
15,600	-1,759
15,700	-6,378
15,800	-8,577
15,900	-7,522
16,000	-3,614
16,100	1,663
16,200	6,307
16,300	8,558
16,400	7,563
16,500	3,701
16,600	-1,562
16,700	-6,230
16,800	-8,535
16,900	-7,604
17,000	-3,790
17,100	1,459
17,200	6,153
17,300	8,514
17,400	7,646
17,500	3,879
17,600	-1,360
17,700	-6,082
17,800	-8,499
17,900	-7,691
18,000	-3,965
18,100	1,266
18,200	6,019
18,300	8,489
18,400	7,738
18,500	4,048
18,600	-1,180
18,700	-5,962
18,800	-8,483
18,900	-7,784
19,000	-4,129
19,100	1,096
19,200	5,906
19,300	8,475
19,400	7,827
19,500	4,207
19,600	-1,010
19,700	-5,844
19,800	-8,461
19,900	-7,866
20,000	-4,287
20,100	0,918
20,200	5,775
20,300	8,439
20,400	7,903
20,500	4,369
20,600	-0,820
20,700	-5,697
20,800	-8,412
20,900	-7,938
21,000	-4,455
21,100	0,716
21,200	5,614
21,300	8,383
21,400	7,974
21,500	4,541
21,600	-0,612
21,700	-5,533
21,800	-8,356
21,900	-8,010
22,000	-4,626
22,100	0,513
22,200	5,458
22,300	8,333
22,400	8,047
22,500	4,706
22,600	-0,421
22,700	-5,389
22,800	-8,313
22,900	-8,082
23,000	-4,782
23,100	0,334
23,200	5,325
23,300	8,294
23,400	8,114
23,500	4,854
23,600	-0,250
23,700	-5,259
23,800	-8,272
23,900	-8,145
24,000	-4,926
24,100	0,162
24,200	5,189
24,300	8,245
24,400	8,174
24,500	5,001
24,600	-0,068
24,700	-5,111
24,800	-8,215
24,900	-8,203
25,000	-5,082
25,100	-0,034
25,200	5,027
25,300	8,181
25,400	8,234
25,500	5,165
25,600	0,139
25,700	-4,941
25,800	-8,147
25,900	-8,264
26,000	-5,248
26,100	-0,241
26,200	4,857
26,300	8,114
26,400	8,293
26,500	5,326
26,600	0,338
26,700	-4,779
26,800	-8,083
26,900	-8,319
27,000	-5,397
27,100	-0,426
27,200	4,706
27,300	8,052
27,400	8,339
27,500	5,460
27,600	0,508
27,700	-4,636
27,800	-8,019
27,900	-8,357
28,000	-5,521
28,100	-0,590
28,200	4,565
28,300	7,985
28,400	8,373
28,500	5,583
28,600	0,675
28,700	-4,488
28,800	-7,948
28,900	-8,392
29,000	-5,652
29,100	-0,769
29,200	4,405
29,300	7,909
29,400	8,414
29,500	5,728
29,600	0,870
29,700	-4,319
29,800	-7,871
29,900	-8,439
30,000	-5,808
30,100	-0,974
30,200	4,231
30,300	7,833
30,400	8,465
30,500	5,887
30,600	1,076
30,700	-4,145
30,800	-7,794
30,900	-8,487
31,000	-5,960
31,100	-1,171
31,200	4,062
31,300	7,754
31,400	8,502
31,500	6,023
31,600	1,258
31,700	-3,983
31,800	-7,710
31,900	-8,510
32,000	-6,078
32,100	-1,340
32,200	3,904
32,300	7,664
32,400	8,513
32,500	6,130
32,600	1,422
32,700	-3,824
32,800	-7,617
32,900	-8,517
33,000	-6,186
33,100	-1,508
33,200	3,741
33,300	7,570
33,400	8,527
33,500	6,249
33,600	1,601
33,700	-3,655
33,800	-7,526
33,900	-8,543
34,000	-6,321
34,100	-1,699
34,200	3,569
34,300	7,486
34,400	8,565
34,500	6,397
34,600	1,800
34,700	-3,482
34,800	-7,446
34,900	-8,587
35,000	-6,471
35,100	-1,899
35,200	3,396
35,300	7,403
35,400	8,603
35,500	6,539
35,600	1,993
35,700	-3,309
35,800	-7,355
35,900	-8,609
36,000	-6,596
36,100	-2,081
36,200	3,221
36,300	7,299
36,400	8,605
36,500	6,646
36,600	2,167
36,700	-3,131
36,800	-7,238
36,900	-8,597
37,000	-6,694
37,100	-2,253
37,200	3,039
37,300	7,176
37,400	8,590
37,500	6,745
37,600	2,343
37,700	-2,947
37,800	-7,119
37,900	-8,591
38,000	-6,805
38,100	-2,436
38,200	2,858
38,300	7,070
38,400	8,602
38,500	6,871
38,600	2,532
38,700	-2,771
38,800	-7,027
38,900	-8,619
39,000	-6,941
39,100	-2,627
39,200	2,687
39,300	6,985
39,400	8,634
39,500	7,007
39,600	2,719
39,700	-2,602
39,800	-6,938
39,900	-8,641
40,000	-7,065
40,100	-2,808
40,200	2,513
40,300	6,879
40,400	8,634
40,500	7,113
40,600	2,895
40,700	-2,417
40,800	-6,808
40,900	-8,615
41,000	-7,154
41,100	-2,983
41,200	2,315
41,300	6,731
41,400	8,592
41,500	7,196
41,600	3,073
41,700	-2,211
41,800	-6,655
41,900	-8,574
42,000	-7,242
42,100	-3,165
42,200	2,112
42,300	6,589
42,400	8,567
42,500	7,296
42,600	3,256
42,700	-2,023
42,800	-6,537
42,900	-8,573
43,000	-7,356
43,100	-3,344
43,200	1,942
43,300	6,496
43,400	8,587
43,500	7,417
43,600	3,429
43,700	-1,866
43,800	-6,456
43,900	-8,597
44,000	-7,474
44,100	-3,511
44,200	1,786
44,300	6,406
44,400	8,594
44,500	7,521
44,600	3,595
44,700	-1,693
44,800	-6,336
44,900	-8,574
45,000	-7,561
45,100	-3,684
45,200	1,584
45,300	6,247
45,400	8,539
45,500	7,596
45,600	3,779
45,700	-1,465
45,800	-6,148
45,900	-8,500
46,000	-7,633
46,100	-3,876
46,200	1,346
46,300	6,056
46,400	8,470
46,500	7,674
46,600	3,969
46,700	-1,243
46,800	-5,985
46,900	-8,458
47,000	-7,721
47,100	-4,049
47,200	1,167
47,300	5,945
47,400	8,466
47,500	7,769
47,600	4,111
47,700	-1,117
47,800	-5,927
47,900	-8,485
48,000	-7,813
48,100	-4,162
48,200	1,079
48,300	5,913
48,400	8,499
48,500	7,850
48,600	4,214
48,700	-1,024
48,800	-5,873
48,900	-8,489
49,000	-7,883
49,100	-4,290
49,200	0,923
49,300	5,779
49,400	8,445
49,500	7,919
49,600	4,411
49,700	-0,750
49,800	-5,616
49,900	-8,363
50,000	-7,968
50,100	-4,590
50,200	0,496
50,300	5,386
50,400	8,254
50,500	8,038
50,600	4,827
50,700	-0,177
50,800	-5,108
50,900	-8,134
51,000	-8,131
51,100	-5,104
