Tiempo	Señal
t/ms	U/V

0,000	2,13
0,100	7,22
0,200	10,00
0,300	10,00
0,400	8,71
0,500	4,01
0,600	-1,10
0,700	-4,74
0,800	-5,30
0,900	-2,78
1,000	1,94
1,100	7,02
1,200	10,00
1,300	10,00
1,400	8,89
1,500	4,18
1,600	-0,93
1,700	-4,63
1,800	-5,32
1,900	-2,94
2,000	1,76
2,100	6,87
2,200	10,00
2,300	10,00
2,400	9,03
2,500	4,39
2,600	-0,78
2,700	-4,55
2,800	-5,31
2,900	-3,10
3,000	1,57
3,100	6,70
3,200	10,00
3,300	10,00
3,400	9,17
3,500	4,58
3,600	-0,61
3,700	-4,46
3,800	-5,33
3,900	-3,22
4,000	1,36
4,100	6,53
4,200	10,00
4,300	10,00
4,400	9,27
4,500	4,77
4,600	-0,41
4,700	-4,37
4,800	-5,37
4,900	-3,33
5,000	1,17
5,100	6,34
5,200	10,00
5,300	10,00
5,400	9,41
5,500	4,96
5,600	-0,25
5,700	-4,26
5,800	-5,39
5,900	-3,46
6,000	1,00
6,100	6,17
6,200	10,18
6,300	10,00
6,400	9,55
6,500	5,13
6,600	-0,05
6,700	-4,15
6,800	-5,40
6,900	-3,61
7,000	0,82
7,100	5,99
7,200	10,06
7,300	10,00
7,400	9,67
7,500	5,33
7,600	0,11
7,700	-4,04
7,800	-5,37
7,900	-3,74
8,000	0,62
8,100	5,83
8,200	9,96
8,300	10,00
8,400	9,82
8,500	5,53
8,600	0,31
8,700	-3,96
8,800	-5,37
8,900	-3,84
9,000	0,41
9,100	5,63
9,200	9,86
9,300	10,00
9,400	9,91
9,500	5,72
9,600	0,50
9,700	-3,82
9,800	-5,38
9,900	-3,95
10,000	0,23
10,100	5,42
10,200	9,73
10,300	10,00
10,400	10,01
10,500	5,89
10,600	0,71
10,700	-3,69
10,800	-5,40
10,900	-4,08
11,000	0,06
11,100	5,24
11,200	9,61
11,300	10,00
11,400	10,13
11,500	6,08
11,600	0,87
11,700	-3,55
11,800	-5,38
11,900	-4,19
12,000	-0,12
12,100	5,07
12,200	9,46
12,300	10,00
12,400	10,00
12,500	6,26
12,600	1,06
12,700	-3,42
12,800	-5,36
12,900	-4,32
13,000	-0,32
13,100	4,88
13,200	9,36
13,300	10,00
13,400	10,00
13,500	6,45
13,600	1,27
13,700	-3,31
13,800	-5,34
13,900	-4,39
14,000	-0,51
14,100	4,68
14,200	9,23
14,300	10,00
14,400	10,00
14,500	6,62
14,600	1,48
14,700	-3,18
14,800	-5,35
14,900	-4,49
15,000	-0,68
15,100	4,47
15,200	9,08
15,300	10,00
15,400	10,00
15,500	6,79
15,600	1,67
15,700	-3,01
15,800	-5,33
15,900	-4,59
16,000	-0,83
16,100	4,29
16,200	8,93
16,300	10,00
16,400	10,00
16,500	6,97
16,600	1,85
16,700	-2,86
16,800	-5,31
16,900	-4,68
17,000	-1,01
17,100	4,11
17,200	8,78
17,300	10,00
17,400	10,00
17,500	7,16
17,600	2,03
17,700	-2,74
17,800	-5,26
17,900	-4,76
18,000	-1,20
18,100	3,91
18,200	8,64
18,300	10,00
18,400	10,00
18,500	7,33
18,600	2,23
18,700	-2,59
18,800	-5,25
18,900	-4,81
19,000	-1,38
19,100	3,71
19,200	8,51
19,300	10,00
19,400	10,00
19,500	7,49
19,600	2,45
19,700	-2,45
19,800	-5,21
19,900	-4,89
20,000	-1,54
20,100	3,50
20,200	8,36
20,300	10,00
20,400	10,00
20,500	7,63
20,600	2,63
20,700	-2,28
20,800	-5,17
20,900	-4,97
21,000	-1,68
21,100	3,33
21,200	8,18
21,300	10,00
21,400	10,00
21,500	7,79
21,600	2,82
21,700	-2,13
21,800	-5,10
21,900	-5,05
22,000	-1,85
22,100	3,14
22,200	8,04
22,300	10,00
22,400	10,00
22,500	7,98
22,600	3,01
22,700	-1,97
22,800	-5,06
22,900	-5,08
23,000	-2,03
23,100	2,96
23,200	7,90
23,300	10,00
23,400	10,00
23,500	8,13
23,600	3,22
23,700	-1,82
23,800	-5,01
23,900	-5,11
24,000	-2,19
24,100	2,73
24,200	7,74
24,300	10,00
24,400	10,00
24,500	8,28
24,600	3,40
24,700	-1,63
24,800	-4,97
24,900	-5,17
25,000	-2,32
25,100	2,55
25,200	7,57
25,300	10,00
25,400	10,00
25,500	8,41
25,600	3,60
25,700	-1,47
25,800	-4,90
25,900	-5,22
26,000	-2,46
26,100	2,36
26,200	7,40
26,300	10,00
26,400	10,00
26,500	8,57
26,600	3,78
26,700	-1,32
26,800	-4,80
26,900	-5,25
27,000	-2,63
27,100	2,19
27,200	7,24
27,300	10,00
27,400	10,00
27,500	8,72
27,600	3,97
27,700	-1,16
27,800	-4,73
27,900	-5,28
28,000	-2,77
28,100	1,98
28,200	7,07
28,300	10,00
28,400	10,00
28,500	8,86
28,600	4,18
28,700	-0,99
28,800	-4,65
28,900	-5,29
29,000	-2,91
29,100	1,77
29,200	6,90
29,300	10,00
29,400	10,00
29,500	9,00
29,600	4,37
29,700	-0,80
29,800	-4,58
29,900	-5,32
30,000	-3,05
30,100	1,59
30,200	6,71
30,300	10,00
30,400	10,00
30,500	9,15
30,600	4,53
30,700	-0,60
30,800	-4,48
30,900	-5,36
31,000	-3,20
31,100	1,41
31,200	6,54
31,300	10,00
31,400	10,00
31,500	9,28
31,600	4,74
31,700	-0,42
31,800	-4,37
31,900	-5,37
32,000	-3,35
32,100	1,20
32,200	6,39
32,300	10,00
32,400	10,00
32,500	9,42
32,600	4,94
32,700	-0,28
32,800	-4,26
32,900	-5,35
33,000	-3,48
33,100	1,01
33,200	6,21
33,300	10,19
33,400	10,00
33,500	9,53
33,600	5,16
33,700	-0,08
33,800	-4,18
33,900	-5,38
34,000	-3,58
34,100	0,81
34,200	6,01
34,300	10,10
34,400	10,00
34,500	9,65
34,600	5,33
34,700	0,11
34,800	-4,07
34,900	-5,39
35,000	-3,72
35,100	0,64
35,200	5,82
35,300	9,98
35,400	10,00
35,500	9,80
35,600	5,51
35,700	0,30
35,800	-3,93
35,900	-5,40
36,000	-3,85
36,100	0,45
36,200	5,64
36,300	9,86
36,400	10,00
36,500	9,93
36,600	5,68
36,700	0,48
36,800	-3,82
36,900	-5,40
37,000	-3,97
37,100	0,26
37,200	5,46
37,300	9,73
37,400	10,00
37,500	10,04
37,600	5,89
37,700	0,66
37,800	-3,71
37,900	-5,37
38,000	-4,07
38,100	0,05
38,200	5,27
38,300	9,62
38,400	10,00
38,500	10,13
38,600	6,09
38,700	0,85
38,800	-3,58
38,900	-5,36
39,000	-4,18
39,100	-0,13
39,200	5,07
39,300	9,48
39,400	10,00
39,500	10,22
39,600	6,23
39,700	1,07
39,800	-3,45
39,900	-5,38
40,000	-4,27
40,100	-0,28
40,200	4,87
40,300	9,37
40,400	10,00
40,500	10,00
40,600	6,42
40,700	1,24
40,800	-3,30
40,900	-5,37
41,000	-4,38
41,100	-0,46
41,200	4,71
41,300	9,22
41,400	10,00
41,500	10,00
41,600	6,59
41,700	1,43
41,800	-3,17
41,900	-5,35
42,000	-4,51
42,100	-0,64
42,200	4,52
42,300	9,09
42,400	10,00
42,500	10,00
42,600	6,78
42,700	1,62
42,800	-3,05
42,900	-5,32
43,000	-4,57
43,100	-0,85
43,200	4,32
43,300	8,97
43,400	10,00
43,500	10,00
43,600	6,96
43,700	1,84
43,800	-2,92
43,900	-5,31
44,000	-4,66
44,100	-1,00
44,200	4,13
44,300	8,82
44,400	10,00
44,500	10,00
44,600	7,11
44,700	2,02
44,800	-2,76
44,900	-5,29
45,000	-4,74
45,100	-1,18
45,200	3,94
45,300	8,64
45,400	10,00
45,500	10,00
45,600	7,28
45,700	2,21
45,800	-2,60
45,900	-5,26
46,000	-4,83
46,100	-1,32
46,200	3,75
46,300	8,52
46,400	10,00
46,500	10,00
46,600	7,45
46,700	2,38
46,800	-2,46
46,900	-5,21
47,000	-4,88
47,100	-1,51
47,200	3,55
47,300	8,39
47,400	10,00
47,500	10,00
47,600	7,63
47,700	2,57
47,800	-2,32
47,900	-5,17
48,000	-4,95
48,100	-1,67
48,200	3,34
48,300	8,24
48,400	10,00
48,500	10,00
48,600	7,78
48,700	2,79
48,800	-2,17
48,900	-5,14
49,000	-4,99
49,100	-1,83
49,200	3,15
49,300	8,08
49,400	10,00
49,500	10,00
49,600	7,93
49,700	2,98
49,800	-1,99
49,900	-5,10
50,000	-5,07
50,100	-1,97
50,200	2,97
50,300	7,90
50,400	10,00
50,500	10,00
50,600	8,09
50,700	3,18
50,800	-1,82
50,900	-5,02
51,000	-5,13
51,100	-2,16
